reward_today,future_reward,delay,trials.thisRepN,trials.thisTrialN,trials.thisN,trials.thisIndex,thisRow.t,notes,trial.started,fixation.started,text.started,key_resp.started,fixation.stopped,trial.stopped,key_resp.keys,key_resp.rt,key_resp.duration,participant,session,date,expName,psychopyVersion,frameRate,expStart,
78,80,162,0,0,0,6,0.06864160002442077,,0.01836320001166314,0.06864160002442077,1.0092202000087127,1.0092202000087127,1.0755153000354767,3.3679065000033006,t,2.3458803999819793,None,003,001,2024-11-19_21h46.18.225,delay discounting,2024.1.5,None,2024-11-19 21h46.33.761299 +0530,
15,35,13,0,1,1,1,3.385481700010132,,3.3698350000195205,3.385481700010132,4.375851700024214,4.375851700024214,4.392727300000843,7.778305499989074,l,3.4002848000382073,None,003,001,2024-11-19_21h46.18.225,delay discounting,2024.1.5,None,2024-11-19 21h46.33.761299 +0530,
11,30,7,0,2,2,0,7.7926989999832585,,7.779528199986089,7.7926989999832585,8.792570499994326,8.792570499994326,8.792570499994326,10.260974600038026,l,1.462542699999176,None,003,001,2024-11-19_21h46.18.225,delay discounting,2024.1.5,None,2024-11-19 21h46.33.761299 +0530,
67,75,119,0,3,3,5,10.277043499983847,,10.262179900018964,10.277043499983847,11.275687200017273,11.275687200017273,11.275687200017273,12.944464600004721,t,1.6540467999875546,None,003,001,2024-11-19_21h46.18.225,delay discounting,2024.1.5,None,2024-11-19 21h46.33.761299 +0530,
49,60,89,0,4,4,4,12.95956520002801,,12.94571460003499,12.95956520002801,13.959347299998626,13.959347299998626,13.959347299998626,21.027463200036436,l,7.057938800018746,None,003,001,2024-11-19_21h46.18.225,delay discounting,2024.1.5,None,2024-11-19 21h46.33.761299 +0530,
40,55,62,0,5,5,3,21.042657700018026,,21.02864460001001,21.042657700018026,22.04282080003759,22.04282080003759,22.04282080003759,23.394673700036947,t,1.3432886999798939,None,003,001,2024-11-19_21h46.18.225,delay discounting,2024.1.5,None,2024-11-19 21h46.33.761299 +0530,
27,50,21,0,6,6,2,23.409458599984646,,23.395862200006377,23.409458599984646,24.409382199984975,24.409382199984975,24.409382199984975,26.1622139000101,l,1.7506565999938175,None,003,001,2024-11-19_21h46.18.225,delay discounting,2024.1.5,None,2024-11-19 21h46.33.761299 +0530,
78,80,162,1,0,7,6,26.17582649999531,,26.163768300029915,26.17582649999531,27.175653200014494,27.175653200014494,27.175653200014494,29.97802129999036,t,2.796598899993114,None,003,001,2024-11-19_21h46.18.225,delay discounting,2024.1.5,None,2024-11-19 21h46.33.761299 +0530,
11,30,7,1,1,8,0,29.992690499988385,,29.97963770001661,29.992690499988385,30.992771500023082,30.992771500023082,30.992771500023082,32.561905000009574,l,1.5637535999994725,None,003,001,2024-11-19_21h46.18.225,delay discounting,2024.1.5,None,2024-11-19 21h46.33.761299 +0530,
49,60,89,1,2,9,4,32.57571760000428,,32.56303060002392,32.57571760000428,33.57579249999253,33.57579249999253,33.57579249999253,42.07861880003475,l,8.500665300001856,None,003,001,2024-11-19_21h46.18.225,delay discounting,2024.1.5,None,2024-11-19 21h46.33.761299 +0530,
40,55,62,1,3,10,3,42.09263580001425,,42.079939600022044,42.09263580001425,43.09286630002316,43.09286630002316,43.09286630002316,45.278029799985234,t,2.168198300001677,None,003,001,2024-11-19_21h46.18.225,delay discounting,2024.1.5,None,2024-11-19 21h46.33.761299 +0530,
67,75,119,1,4,11,5,45.29279770003632,,45.27912850002758,45.29279770003632,46.293040000018664,46.293040000018664,46.293040000018664,61.027901599998586,t,14.719295699964277,None,003,001,2024-11-19_21h46.18.225,delay discounting,2024.1.5,None,2024-11-19 21h46.33.761299 +0530,
15,35,13,1,5,12,1,61.04273560002912,,61.02923500002362,61.04273560002912,62.042971900023986,62.042971900023986,62.042971900023986,66.37757190002594,l,4.323620999988634,None,003,001,2024-11-19_21h46.18.225,delay discounting,2024.1.5,None,2024-11-19 21h46.33.761299 +0530,
27,50,21,1,6,13,2,66.39302950003184,,66.37874240003293,66.39302950003184,67.39300959999673,67.39300959999673,67.39300959999673,69.14510439999867,l,1.7497294000349939,None,003,001,2024-11-19_21h46.18.225,delay discounting,2024.1.5,None,2024-11-19 21h46.33.761299 +0530,
15,35,13,2,0,14,1,69.1593511000392,,69.14635130000534,69.1593511000392,70.15962009999203,70.15962009999203,70.15962009999203,72.99493320001056,l,2.822104299964849,None,003,001,2024-11-19_21h46.18.225,delay discounting,2024.1.5,None,2024-11-19 21h46.33.761299 +0530,
11,30,7,2,1,15,0,73.00938910001423,,72.99602550000418,73.00938910001423,74.00958700000774,74.00958700000774,74.00958700000774,87.26110460003838,l,13.234690199955367,None,003,001,2024-11-19_21h46.18.225,delay discounting,2024.1.5,None,2024-11-19 21h46.33.761299 +0530,
78,80,162,2,2,16,6,87.27585129998624,,87.26225150004029,87.27585129998624,88.27599200000986,88.27599200000986,88.27599200000986,92.79509820003295,t,4.5087089000153355,None,003,001,2024-11-19_21h46.18.225,delay discounting,2024.1.5,None,2024-11-19 21h46.33.761299 +0530,
40,55,62,2,3,17,3,92.82062499999302,,92.80337360000703,92.82062499999302,93.80951280001318,93.80951280001318,93.82602109998697,95.87776780000422,t,2.054364900046494,None,003,001,2024-11-19_21h46.18.225,delay discounting,2024.1.5,None,2024-11-19 21h46.33.761299 +0530,
67,75,119,2,4,18,5,95.89280860003782,,95.87896440003533,95.89280860003782,96.89307580003515,96.89307580003515,96.89307580003515,98.79475990001811,t,1.8958632000139914,None,003,001,2024-11-19_21h46.18.225,delay discounting,2024.1.5,None,2024-11-19 21h46.33.761299 +0530,
27,50,21,2,5,19,2,98.80954899999779,,98.7959278000053,98.80954899999779,99.80972449999535,99.80972449999535,99.80972449999535,101.06153110001469,l,1.237573100021109,None,003,001,2024-11-19_21h46.18.225,delay discounting,2024.1.5,None,2024-11-19 21h46.33.761299 +0530,
49,60,89,2,6,20,4,101.07622670003911,,101.06275119999191,101.07622670003911,102.07625179999741,102.07625179999741,102.07625179999741,110.62787100003334,l,8.54567429999588,None,003,001,2024-11-19_21h46.18.225,delay discounting,2024.1.5,None,2024-11-19 21h46.33.761299 +0530,
49,60,89,3,0,21,4,110.64312449999852,,110.62906700000167,110.64312449999852,111.64314589998685,111.64314589998685,111.64314589998685,113.36160250002285,l,1.7101126000052318,None,003,001,2024-11-19_21h46.18.225,delay discounting,2024.1.5,None,2024-11-19 21h46.33.761299 +0530,
78,80,162,3,1,22,6,113.37602969998261,,113.36282239999855,113.37602969998261,114.37621590000344,114.37621590000344,114.37621590000344,115.5113668999984,t,1.1215019999654032,None,003,001,2024-11-19_21h46.18.225,delay discounting,2024.1.5,None,2024-11-19 21h46.33.761299 +0530,
40,55,62,3,2,23,3,115.5261624000268,,115.51251369999954,115.5261624000268,116.52631019998807,116.52631019998807,116.52631019998807,117.91157890000613,t,1.376657199987676,None,003,001,2024-11-19_21h46.18.225,delay discounting,2024.1.5,None,2024-11-19 21h46.33.761299 +0530,
11,30,7,3,3,24,0,117.92628750001313,,117.91275110002607,117.92628750001313,118.92609259998426,118.92609259998426,118.92609259998426,120.49596369999927,l,1.5567028999794275,None,003,001,2024-11-19_21h46.18.225,delay discounting,2024.1.5,None,2024-11-19 21h46.33.761299 +0530,
67,75,119,3,4,25,5,120.5097051000339,,120.49718410003697,120.5097051000339,121.50972110003931,121.50972110003931,121.50972110003931,129.89515370002482,t,8.368186499981675,None,003,001,2024-11-19_21h46.18.225,delay discounting,2024.1.5,None,2024-11-19 21h46.33.761299 +0530,
15,35,13,3,5,26,1,129.90989950002404,,129.89620760001708,129.90989950002404,130.90979539998807,130.90979539998807,130.90979539998807,132.77805530000478,l,1.8651322000077926,None,003,001,2024-11-19_21h46.18.225,delay discounting,2024.1.5,None,2024-11-19 21h46.33.761299 +0530,
27,50,21,3,6,27,2,132.79310160002206,,132.7792528999853,132.79310160002206,133.79309360001935,133.79309360001935,133.79309360001935,136.0455948000308,l,2.238427300006151,None,003,001,2024-11-19_21h46.18.225,delay discounting,2024.1.5,None,2024-11-19 21h46.33.761299 +0530,
67,75,119,4,0,28,5,136.06032510002842,,136.04688530002022,136.06032510002842,137.05982770002447,137.05982770002447,137.05982770002447,146.3779984000139,t,9.308725100010633,None,003,001,2024-11-19_21h46.18.225,delay discounting,2024.1.5,None,2024-11-19 21h46.33.761299 +0530,
49,60,89,4,1,29,4,146.3928821000154,,146.37919980002334,146.3928821000154,147.3932163999998,147.3932163999998,147.3932163999998,160.8782177999965,t,13.476684899942484,None,003,001,2024-11-19_21h46.18.225,delay discounting,2024.1.5,None,2024-11-19 21h46.33.761299 +0530,
78,80,162,4,2,30,6,160.8930969000212,,160.8794506000122,160.8930969000212,161.89332339999964,161.89332339999964,161.89332339999964,173.69517520000227,t,11.79590939998161,None,003,001,2024-11-19_21h46.18.225,delay discounting,2024.1.5,None,2024-11-19 21h46.33.761299 +0530,
40,55,62,4,3,31,3,173.7097784000216,,173.6963420000393,173.7097784000216,174.71006800001487,174.71006800001487,174.71006800001487,188.54694700002437,t,13.833817399980035,None,003,001,2024-11-19_21h46.18.225,delay discounting,2024.1.5,None,2024-11-19 21h46.33.761299 +0530,
15,35,13,4,4,32,1,188.55999099998735,,188.5481434999965,188.55999099998735,189.56021710002096,189.56021710002096,189.56021710002096,199.11191939999117,l,9.54095509997569,None,003,001,2024-11-19_21h46.18.225,delay discounting,2024.1.5,None,2024-11-19 21h46.33.761299 +0530,
27,50,21,4,5,33,2,199.12632169999415,,199.113050999993,199.12632169999415,200.12647200003266,200.12647200003266,200.12647200003266,205.39530209999066,l,5.264271199994255,None,003,001,2024-11-19_21h46.18.225,delay discounting,2024.1.5,None,2024-11-19 21h46.33.761299 +0530,
11,30,7,4,6,34,0,205.40998100000434,,205.39651510003023,205.40998100000434,206.41017340001417,206.41017340001417,206.41017340001417,209.16403889999492,l,2.7490300000063144,None,003,001,2024-11-19_21h46.18.225,delay discounting,2024.1.5,None,2024-11-19 21h46.33.761299 +0530,
78,80,162,5,0,35,6,209.1787317999988,,209.16525369999,209.1787317999988,210.1763802000205,210.1763802000205,210.19343139999546,211.47836160002043,t,1.289576000010129,None,003,001,2024-11-19_21h46.18.225,delay discounting,2024.1.5,None,2024-11-19 21h46.33.761299 +0530,
15,35,13,5,1,36,1,211.49329660000512,,211.4795485000359,211.49329660000512,212.4933258999954,212.4933258999954,212.4933258999954,214.69522880000295,l,2.194527300016489,None,003,001,2024-11-19_21h46.18.225,delay discounting,2024.1.5,None,2024-11-19 21h46.33.761299 +0530,
67,75,119,5,2,37,5,214.71021170000313,,214.69650670001283,214.71021170000313,215.71007590001682,215.71007590001682,215.71007590001682,216.62906370003475,t,0.91618949995609,None,003,001,2024-11-19_21h46.18.225,delay discounting,2024.1.5,None,2024-11-19 21h46.33.761299 +0530,
49,60,89,5,3,38,4,216.64338760002283,,216.6302449000068,216.64338760002283,217.64353040000424,217.64353040000424,217.64353040000424,223.9122483000392,t,6.262922599969897,None,003,001,2024-11-19_21h46.18.225,delay discounting,2024.1.5,None,2024-11-19 21h46.33.761299 +0530,
11,30,7,5,4,39,0,223.9265714000212,,223.91342430002987,223.9265714000212,224.92667320003966,224.92667320003966,224.92667320003966,229.3121044000145,l,4.375216000014916,None,003,001,2024-11-19_21h46.18.225,delay discounting,2024.1.5,None,2024-11-19 21h46.33.761299 +0530,
27,50,21,5,5,40,2,229.32647939998424,,229.3133220000309,229.32647939998424,230.32650710002054,230.32650710002054,230.32650710002054,231.895348799997,l,1.5515600999933667,None,003,001,2024-11-19_21h46.18.225,delay discounting,2024.1.5,None,2024-11-19 21h46.33.761299 +0530,
40,55,62,5,6,41,3,231.9100960000069,,231.8965642999974,231.9100960000069,232.91014190000715,232.91014190000715,232.91014190000715,235.84523780003656,t,2.9190990999923088,None,003,001,2024-11-19_21h46.18.225,delay discounting,2024.1.5,None,2024-11-19 21h46.33.761299 +0530,
15,35,13,6,0,42,1,235.86006050003925,,235.84651230002055,235.86006050003925,236.86029849998886,236.86029849998886,236.86029849998886,250.37840220000362,l,13.510682399966754,None,003,001,2024-11-19_21h46.18.225,delay discounting,2024.1.5,None,2024-11-19 21h46.33.761299 +0530,
11,30,7,6,1,43,0,250.39343619998544,,250.37963580002543,250.39343619998544,251.3934252000181,251.3934252000181,251.3934252000181,259.0285498999874,l,7.627573599980678,None,003,001,2024-11-19_21h46.18.225,delay discounting,2024.1.5,None,2024-11-19 21h46.33.761299 +0530,
27,50,21,6,2,44,2,259.04364340001484,,259.0297471000231,259.04364340001484,260.04359600000316,260.04359600000316,260.04359600000316,266.0119672000292,l,5.951402600039728,None,003,001,2024-11-19_21h46.18.225,delay discounting,2024.1.5,None,2024-11-19 21h46.33.761299 +0530,
78,80,162,6,3,45,6,266.02665210003033,,266.0131272000144,266.02665210003033,267.0267719000112,267.0267719000112,267.0267719000112,267.82953029999044,t,0.8003942999639548,None,003,001,2024-11-19_21h46.18.225,delay discounting,2024.1.5,None,2024-11-19 21h46.33.761299 +0530,
40,55,62,6,4,46,3,267.8436122999992,,267.831211599987,267.8436122999992,268.84355059999507,268.84355059999507,268.84355059999507,270.94547979999334,t,2.0936627999763004,None,003,001,2024-11-19_21h46.18.225,delay discounting,2024.1.5,None,2024-11-19 21h46.33.761299 +0530,
49,60,89,6,5,47,4,270.960277300037,,270.94671440002276,270.960277300037,271.9602144000237,271.9602144000237,271.9602144000237,273.11206180002773,l,1.1357980000320822,None,003,001,2024-11-19_21h46.18.225,delay discounting,2024.1.5,None,2024-11-19 21h46.33.761299 +0530,
67,75,119,6,6,48,5,273.1267047000001,,273.1132499999949,273.1267047000001,274.12656280002557,274.12656280002557,274.12656280002557,275.31214570003795,t,1.1685759999672882,None,003,001,2024-11-19_21h46.18.225,delay discounting,2024.1.5,None,2024-11-19 21h46.33.761299 +0530,
27,50,21,7,0,49,2,275.3267504000105,,275.3133553999942,275.3267504000105,276.3266764000291,276.3266764000291,276.3266764000291,278.26377580000553,l,1.9332116000005044,None,003,001,2024-11-19_21h46.18.225,delay discounting,2024.1.5,None,2024-11-19 21h46.33.761299 +0530,
78,80,162,7,1,50,6,278.27767630002927,,278.2652090000338,278.27767630002927,279.27669890003745,279.27669890003745,279.27669890003745,313.4621671999921,t,34.180093700008,None,003,001,2024-11-19_21h46.18.225,delay discounting,2024.1.5,None,2024-11-19 21h46.33.761299 +0530,
67,75,119,7,2,51,5,313.47678279998945,,313.4633507000399,313.47678279998945,314.476883299998,314.476883299998,314.476883299998,318.6454673000262,t,4.154209500004072,None,003,001,2024-11-19_21h46.18.225,delay discounting,2024.1.5,None,2024-11-19 21h46.33.761299 +0530,
11,30,7,7,3,52,0,318.6603356000269,,318.64672100002645,318.6603356000269,319.6606789000216,319.6606789000216,319.6606789000216,320.7796215999988,l,1.1042545999516733,None,003,001,2024-11-19_21h46.18.225,delay discounting,2024.1.5,None,2024-11-19 21h46.33.761299 +0530,
40,55,62,7,4,53,3,320.7938334000064,,320.7808244000189,320.7938334000064,321.7937819000217,321.7937819000217,321.7937819000217,323.0122449999908,t,1.2025575000443496,None,003,001,2024-11-19_21h46.18.225,delay discounting,2024.1.5,None,2024-11-19 21h46.33.761299 +0530,
15,35,13,7,5,54,1,323.0270578000345,,323.01341150002554,323.0270578000345,324.0267925999942,324.0267925999942,324.0267925999942,328.2623247000156,l,4.229533199977595,None,003,001,2024-11-19_21h46.18.225,delay discounting,2024.1.5,None,2024-11-19 21h46.33.761299 +0530,
49,60,89,7,6,55,4,328.2769464000012,,328.26349089998985,328.2769464000012,329.27680749999126,329.27680749999126,329.27680749999126,332.07870930002537,t,2.7864002999849617,None,003,001,2024-11-19_21h46.18.225,delay discounting,2024.1.5,None,2024-11-19 21h46.33.761299 +0530,
11,30,7,8,0,56,0,332.09374260000186,,332.0798522999976,332.09374260000186,333.09363780001877,333.09363780001877,333.09363780001877,335.8625336000114,l,2.7635638999636285,None,003,001,2024-11-19_21h46.18.225,delay discounting,2024.1.5,None,2024-11-19 21h46.33.761299 +0530,
49,60,89,8,1,57,4,335.8772351000225,,335.8637005999917,335.8772351000225,336.8771688999841,336.8771688999841,336.8771688999841,337.74582330003614,t,0.8655329999746755,None,003,001,2024-11-19_21h46.18.225,delay discounting,2024.1.5,None,2024-11-19 21h46.33.761299 +0530,
27,50,21,8,2,58,2,337.76066040003207,,337.7470298000262,337.76066040003207,338.7604871999938,338.7604871999938,338.7604871999938,339.7291805000277,t,0.9612150000175461,None,003,001,2024-11-19_21h46.18.225,delay discounting,2024.1.5,None,2024-11-19 21h46.33.761299 +0530,
15,35,13,8,3,59,1,339.74360960000195,,339.7303423000267,339.74360960000195,340.74360049999086,340.74360049999086,340.74360049999086,343.9456943999976,l,3.199067900015507,None,003,001,2024-11-19_21h46.18.225,delay discounting,2024.1.5,None,2024-11-19 21h46.33.761299 +0530,
78,80,162,8,4,60,6,343.96050089999335,,343.94697669998277,343.96050089999335,344.9605253000045,344.9605253000045,344.9605253000045,351.0956889000372,t,6.127060199971311,None,003,001,2024-11-19_21h46.18.225,delay discounting,2024.1.5,None,2024-11-19 21h46.33.761299 +0530,
67,75,119,8,5,61,5,351.1107180000399,,351.0967149999924,351.1107180000399,352.1108038999955,352.1108038999955,352.1108038999955,357.29548600001726,t,5.1757564000436105,None,003,001,2024-11-19_21h46.18.225,delay discounting,2024.1.5,None,2024-11-19 21h46.33.761299 +0530,
40,55,62,8,6,62,3,357.3105534000206,,357.2966363999876,357.3105534000206,358.3109823000268,358.3109823000268,358.3109823000268,360.3783942000009,t,2.0550365999806672,None,003,001,2024-11-19_21h46.18.225,delay discounting,2024.1.5,None,2024-11-19 21h46.33.761299 +0530,
15,35,13,9,0,63,1,360.39366100000916,,360.37897439999506,360.39366100000916,361.3938121999963,361.3938121999963,361.3938121999963,362.960973200039,l,1.555657599994447,None,003,001,2024-11-19_21h46.18.225,delay discounting,2024.1.5,None,2024-11-19 21h46.33.761299 +0530,
40,55,62,9,1,64,3,362.9770054999972,,362.9614111999981,362.9770054999972,363.9773529000231,363.9773529000231,363.9773529000231,365.47868210001616,t,1.4867167000193149,None,003,001,2024-11-19_21h46.18.225,delay discounting,2024.1.5,None,2024-11-19 21h46.33.761299 +0530,
49,60,89,9,2,65,4,365.49364400003105,,365.47932199999923,365.49364400003105,366.49386699998286,366.49386699998286,366.49386699998286,375.3452726000105,t,8.841349099995568,None,003,001,2024-11-19_21h46.18.225,delay discounting,2024.1.5,None,2024-11-19 21h46.33.761299 +0530,
11,30,7,9,3,66,0,375.36067890003324,,375.34589960001176,375.36067890003324,376.3606176000321,376.3606176000321,376.3606176000321,377.4120463000145,l,1.0363238000427373,None,003,001,2024-11-19_21h46.18.225,delay discounting,2024.1.5,None,2024-11-19 21h46.33.761299 +0530,
67,75,119,9,4,67,5,377.42728170001647,,377.412684000039,377.42728170001647,378.4272023999947,378.4272023999947,378.4272023999947,379.57871530001285,t,1.148366800043732,None,003,001,2024-11-19_21h46.18.225,delay discounting,2024.1.5,None,2024-11-19 21h46.33.761299 +0530,
78,80,162,9,5,68,6,379.59375430003274,,379.57928810000885,379.59375430003274,380.5938766000327,380.5938766000327,380.5938766000327,381.6120043999981,t,1.011056200019084,None,003,001,2024-11-19_21h46.18.225,delay discounting,2024.1.5,None,2024-11-19 21h46.33.761299 +0530,
27,50,21,9,6,69,2,381.6273069999879,,381.6126706000068,381.6273069999879,382.62737549998565,382.62737549998565,382.62737549998565,383.71189730003243,l,1.0784573000273667,None,003,001,2024-11-19_21h46.18.225,delay discounting,2024.1.5,None,2024-11-19 21h46.33.761299 +0530,
67,75,119,10,0,70,5,383.72729120001895,,383.712547800038,383.72729120001895,384.72731089999434,384.72731089999434,384.72731089999434,385.61219140002504,t,0.8823769000009634,None,003,001,2024-11-19_21h46.18.225,delay discounting,2024.1.5,None,2024-11-19 21h46.33.761299 +0530,
40,55,62,10,1,71,3,385.6272753000376,,385.6128303000005,385.6272753000376,386.6274173000129,386.6274173000129,386.6274173000129,387.7786690000212,t,1.134302100050263,None,003,001,2024-11-19_21h46.18.225,delay discounting,2024.1.5,None,2024-11-19 21h46.33.761299 +0530,
49,60,89,10,2,72,4,387.7937552999938,,387.77928040002007,387.7937552999938,388.79393680003705,388.79393680003705,388.79393680003705,390.2958207000047,l,1.49979530001292,None,003,001,2024-11-19_21h46.18.225,delay discounting,2024.1.5,None,2024-11-19 21h46.33.761299 +0530,
11,30,7,10,3,73,0,390.31065880000824,,390.29642470000545,390.31065880000824,391.3107223000261,391.3107223000261,391.3107223000261,392.36218719999306,l,1.0426649000146426,None,003,001,2024-11-19_21h46.18.225,delay discounting,2024.1.5,None,2024-11-19 21h46.33.761299 +0530,
78,80,162,10,4,74,6,392.3772362000309,,392.3628316000104,392.3772362000309,393.37743779999437,393.37743779999437,393.37743779999437,394.3452796000056,t,0.9601635999861173,None,003,001,2024-11-19_21h46.18.225,delay discounting,2024.1.5,None,2024-11-19 21h46.33.761299 +0530,
15,35,13,10,5,75,1,394.36071119998815,,394.3459106000373,394.36071119998815,395.3609214000171,395.3609214000171,395.3609214000171,398.32879759999923,l,2.957768300024327,None,003,001,2024-11-19_21h46.18.225,delay discounting,2024.1.5,None,2024-11-19 21h46.33.761299 +0530,
27,50,21,10,6,76,2,398.3438041000045,,398.3294548999984,398.3438041000045,399.34390300000086,399.34390300000086,399.34390300000086,401.09520750003867,l,1.7408749999594875,None,003,001,2024-11-19_21h46.18.225,delay discounting,2024.1.5,None,2024-11-19 21h46.33.761299 +0530,
15,35,13,11,0,77,1,401.1106167000253,,401.0958693000139,401.1106167000253,402.1107530000154,402.1107530000154,402.1107530000154,404.0955797000206,l,1.9821491000475362,None,003,001,2024-11-19_21h46.18.225,delay discounting,2024.1.5,None,2024-11-19 21h46.33.761299 +0530,
27,50,21,11,1,78,2,404.11080740002217,,404.09621729998617,404.11080740002217,405.1106916000135,405.1106916000135,405.1106916000135,406.94596769998316,l,1.8329364000237547,None,003,001,2024-11-19_21h46.18.225,delay discounting,2024.1.5,None,2024-11-19 21h46.33.761299 +0530,
49,60,89,11,2,79,4,406.9606674000388,,406.94661039998755,406.9606674000388,407.9608581000357,407.9608581000357,407.9608581000357,409.74515810003504,t,1.7790927999885753,None,003,001,2024-11-19_21h46.18.225,delay discounting,2024.1.5,None,2024-11-19 21h46.33.761299 +0530,
11,30,7,11,3,80,0,409.7606605000328,,409.74573890003376,409.7606605000328,410.7608009999967,410.7608009999967,410.7608009999967,412.12865030003013,l,1.3617138999979943,None,003,001,2024-11-19_21h46.18.225,delay discounting,2024.1.5,None,2024-11-19 21h46.33.761299 +0530,
40,55,62,11,4,81,3,412.1438461000216,,412.1293068000232,412.1438461000216,413.14380279998295,413.14380279998295,413.14380279998295,414.96189079998294,t,1.813392299984116,None,003,001,2024-11-19_21h46.18.225,delay discounting,2024.1.5,None,2024-11-19 21h46.33.761299 +0530,
67,75,119,11,5,82,5,414.9775179999997,,414.96241390000796,414.9775179999997,415.9774873999995,415.9774873999995,415.9774873999995,417.6954603000195,t,1.7153667999664322,None,003,001,2024-11-19_21h46.18.225,delay discounting,2024.1.5,None,2024-11-19 21h46.33.761299 +0530,
78,80,162,11,6,83,6,417.7107496000244,,417.6961052999832,417.7107496000244,418.7106400000048,418.7106400000048,418.7106400000048,420.1952956999885,t,1.480663500027731,None,003,001,2024-11-19_21h46.18.225,delay discounting,2024.1.5,None,2024-11-19 21h46.33.761299 +0530,
67,75,119,12,0,84,5,420.2108311000047,,420.19594030000735,420.2108311000047,421.210787500022,421.210787500022,421.210787500022,422.81224549998296,t,1.5986440000124276,None,003,001,2024-11-19_21h46.18.225,delay discounting,2024.1.5,None,2024-11-19 21h46.33.761299 +0530,
11,30,7,12,1,85,0,422.82748790003825,,422.81289130001096,422.82748790003825,423.8274043999845,423.8274043999845,423.8274043999845,425.6453211000189,l,1.8050764999934472,None,003,001,2024-11-19_21h46.18.225,delay discounting,2024.1.5,None,2024-11-19 21h46.33.761299 +0530,
49,60,89,12,2,86,4,425.6608118999866,,425.64599709998583,425.6608118999866,426.66082600003574,426.66082600003574,426.66082600003574,427.9288645000197,t,1.2641163999796845,None,003,001,2024-11-19_21h46.18.225,delay discounting,2024.1.5,None,2024-11-19 21h46.33.761299 +0530,
15,35,13,12,3,87,1,427.94398849998834,,427.9295097999857,427.94398849998834,428.94399050000357,428.94399050000357,428.94399050000357,430.0453705000109,l,1.0855332000064664,None,003,001,2024-11-19_21h46.18.225,delay discounting,2024.1.5,None,2024-11-19 21h46.33.761299 +0530,
40,55,62,12,4,88,3,430.06082590000005,,430.04596180003136,430.06082590000005,431.06090350000886,431.06090350000886,431.06090350000886,433.3451142000267,t,2.2681257000076585,None,003,001,2024-11-19_21h46.18.225,delay discounting,2024.1.5,None,2024-11-19 21h46.33.761299 +0530,
27,50,21,12,5,89,2,433.3607958999928,,433.3457569000311,433.3607958999928,434.36088870000094,434.36088870000094,434.36088870000094,436.04511790000834,l,1.673738699988462,None,003,001,2024-11-19_21h46.18.225,delay discounting,2024.1.5,None,2024-11-19 21h46.33.761299 +0530,
78,80,162,12,6,90,6,436.0605986000155,,436.04568189999554,436.0605986000155,437.0608058000216,437.0608058000216,437.0608058000216,438.2290501000243,t,1.1626357000204735,None,003,001,2024-11-19_21h46.18.225,delay discounting,2024.1.5,None,2024-11-19 21h46.33.761299 +0530,
78,80,162,13,0,91,6,438.2438710000133,,438.22969479998574,438.2438710000133,439.24394210003084,439.24394210003084,439.24394210003084,440.078401900013,t,0.8255464999820106,None,003,001,2024-11-19_21h46.18.225,delay discounting,2024.1.5,None,2024-11-19 21h46.33.761299 +0530,
11,30,7,13,1,92,0,440.0935676000081,,440.078852000006,440.0935676000081,441.0940793000045,441.0940793000045,441.0940793000045,441.9451515999972,l,0.8426511999568902,None,003,001,2024-11-19_21h46.18.225,delay discounting,2024.1.5,None,2024-11-19 21h46.33.761299 +0530,
40,55,62,13,2,93,3,441.96082690003095,,441.94581330002984,441.96082690003095,442.96087860001717,442.96087860001717,442.96087860001717,444.16231909999624,t,1.1844731000019237,None,003,001,2024-11-19_21h46.18.225,delay discounting,2024.1.5,None,2024-11-19 21h46.33.761299 +0530,
27,50,21,13,3,94,2,444.177517300006,,444.16297180001857,444.177517300006,445.17753859999357,445.17753859999357,445.17753859999357,446.0957739999867,l,0.9163269000127912,None,003,001,2024-11-19_21h46.18.225,delay discounting,2024.1.5,None,2024-11-19 21h46.33.761299 +0530,
49,60,89,13,4,95,4,446.11089569999604,,446.0964141000295,446.11089569999604,447.11091069999384,447.11091069999384,447.11091069999384,448.4289426000323,t,1.3154672000091523,None,003,001,2024-11-19_21h46.18.225,delay discounting,2024.1.5,None,2024-11-19 21h46.33.761299 +0530,
15,35,13,13,5,96,1,448.4441117999959,,448.4296010999824,448.4441117999959,449.44406660000095,449.44406660000095,449.44406660000095,450.395726000017,l,0.9428243999718688,None,003,001,2024-11-19_21h46.18.225,delay discounting,2024.1.5,None,2024-11-19 21h46.33.761299 +0530,
67,75,119,13,6,97,5,450.41087279998465,,450.3963623000309,450.41087279998465,451.4110408999841,451.4110408999841,451.4110408999841,452.3788224000018,t,0.9577262999955565,None,003,001,2024-11-19_21h46.18.225,delay discounting,2024.1.5,None,2024-11-19 21h46.33.761299 +0530,
49,60,89,14,0,98,4,452.394032399985,,452.37932160001947,452.394032399985,453.3941152000334,453.3941152000334,453.3941152000334,454.7621896000346,t,1.3647280000150204,None,003,001,2024-11-19_21h46.18.225,delay discounting,2024.1.5,None,2024-11-19 21h46.33.761299 +0530,
27,50,21,14,1,99,2,454.77756409998983,,454.7628300000215,454.77756409998983,455.777569900034,455.777569900034,455.777569900034,456.6792459000135,l,0.8890241000335664,None,003,001,2024-11-19_21h46.18.225,delay discounting,2024.1.5,None,2024-11-19 21h46.33.761299 +0530,
15,35,13,14,2,100,1,456.6940300000133,,456.6799178000074,456.6940300000133,457.69414829998277,457.69414829998277,457.69414829998277,458.8289755000151,t,1.1258477999945171,None,003,001,2024-11-19_21h46.18.225,delay discounting,2024.1.5,None,2024-11-19 21h46.33.761299 +0530,
78,80,162,14,3,101,6,458.844168599986,,458.8296109000221,458.844168599986,459.8441112000146,459.8441112000146,459.8441112000146,460.9622672999976,t,1.1071448999573477,None,003,001,2024-11-19_21h46.18.225,delay discounting,2024.1.5,None,2024-11-19 21h46.33.761299 +0530,
67,75,119,14,4,102,5,460.9775056000217,,460.9629461999866,460.9775056000217,461.977664200007,461.977664200007,461.977664200007,463.4623325000284,t,1.4681649999693036,None,003,001,2024-11-19_21h46.18.225,delay discounting,2024.1.5,None,2024-11-19 21h46.33.761299 +0530,
11,30,7,14,5,103,0,463.4776530000381,,463.4629922999884,463.4776530000381,464.4776477999985,464.4776477999985,464.4776477999985,465.3955561000039,l,0.9066350999637507,None,003,001,2024-11-19_21h46.18.225,delay discounting,2024.1.5,None,2024-11-19 21h46.33.761299 +0530,
40,55,62,14,6,104,3,465.41091420000885,,465.3961952000391,465.41091420000885,466.41102910001064,466.41102910001064,466.41102910001064,467.3957533999928,t,0.9785875000525266,None,003,001,2024-11-19_21h46.18.225,delay discounting,2024.1.5,None,2024-11-19 21h46.33.761299 +0530,
